PE UV       SUBTECH     SPECTRUM    ASCII       PEDS        4.00
   -1
Sample5926.Probe.Raw.asc
24/02/27
14:48:54.00
24/02/27
14:48:54.00
Hiroki Tanaka

800.000000
1
Lambda 1050
1050L1611222
PerkinElmer UV WinLab 6.3.2.0749 / 2.02.06 Lambda 900 UV/VIS/NIR, Jan 28 2016 16:58:34

0
0
3350/2.4 860.8/2.05
0
0
UV/VIS
0
1
1
DoubleDePol,CommonBeamDepol,RBeamAtt,SBeamAtt,150mm sphere / downward view, WB InGaAs Detector
0
0
0
0
Program
Program
3350/2.4 860.8/2.05
3350/0.28 860.9/0.24
3350/0.28 860.9/0.24
0
4.50



0

860.8
319.2
860.9
Front
90
on
S:1 R:1
20
0
0
0

0



0


0
0
0
0
0




0
0


0
0
#HDR
-1
-1
#GR
nm
%T
1.0
0.0
1900.000000
-10.000000
111
8
1953.805925
-519.417000
#DATA
1900.000000	100.000300
1890.000000	100.166975
1880.000000	98.004086
1870.000000	95.916633
1860.000000	95.975899
1850.000000	95.383303
1840.000000	102.560523
1830.000000	95.849951
1820.000000	91.514774
1810.000000	97.304283
1800.000000	107.086048
1790.000000	100.442958
1780.000000	91.647705
1770.000000	103.816448
1760.000000	105.627416
1750.000000	104.463029
1740.000000	95.814773
1730.000000	88.682330
1720.000000	87.513803
1710.000000	93.991677
1700.000000	101.813552
1690.000000	108.143654
1680.000000	93.592581
1670.000000	95.995099
1660.000000	104.397806
1650.000000	96.642487
1640.000000	89.577292
1630.000000	99.363969
1620.000000	102.460960
1610.000000	106.579704
1600.000000	94.831499
1590.000000	103.161968
1580.000000	105.142328
1570.000000	89.249170
1560.000000	113.022615
1550.000000	99.880663
1540.000000	106.491797
1530.000000	92.729152
1520.000000	96.075583
1510.000000	113.446791
1500.000000	98.113851
1490.000000	106.418663
1480.000000	111.146035
1470.000000	110.025058
1460.000000	95.691015
1450.000000	85.672996
1440.000000	107.797323
1430.000000	102.948201
1420.000000	102.097307
1410.000000	90.907868
1400.000000	110.026437
1390.000000	99.677528
1380.000000	105.566718
1370.000000	107.721126
1360.000000	103.554160
1350.000000	95.716645
1340.000000	93.917424
1330.000000	101.985110
1320.000000	111.753864
1310.000000	98.945696
1300.000000	95.638532
1290.000000	110.210880
1280.000000	108.732557
1270.000000	92.991173
1260.000000	102.143676
1250.000000	99.496360
1240.000000	90.790517
1230.000000	91.076400
1220.000000	108.749757
1210.000000	98.746219
1200.000000	108.266155
1190.000000	100.951911
1180.000000	100.554966
1170.000000	98.664566
1160.000000	97.978359
1150.000000	102.831375
1140.000000	107.638028
1130.000000	107.079612
1120.000000	103.497314
1110.000000	93.841245
1100.000000	95.282118
1090.000000	98.424715
1080.000000	108.024753
1070.000000	102.439734
1060.000000	94.924478
1050.000000	97.239655
1040.000000	104.058523
1030.000000	93.854662
1020.000000	107.395376
1010.000000	93.660511
1000.000000	96.748399
990.000000	99.753195
980.000000	105.985487
970.000000	94.943735
960.000000	88.767622
950.000000	91.592405
940.000000	93.202856
930.000000	94.323137
920.000000	93.382423
910.000000	100.155528
900.000000	96.159797
890.000000	99.952929
880.000000	106.983233
870.000000	103.785678
860.000000	68.355925
850.000000	44.984769
840.000000	126.074100
830.000000	-137.331700
820.000000	-519.417000
810.000000	72.713300
800.000000	1953.805925
